File: XRD/NaBr_Theta_2-Theta.asc
*TYPE		=  Raw
*CLASS		=  ASCII CLASS
*SAMPLE		=  NaBr
*COMMENT	=
*FNAME		=  NaBr_Theta_2-Theta.asc
*DATE		=  21-Feb-25 12:16

*GROUP_COUNT	=  1
*GONIO		=  MiniFlex 300/600, 150
*ATTACHMENT	=  ASC-6
*ASC		=  0, 0, 0.000000, 0.000000
*FILTER		=  None
*C_MONOCHRO	=  None, 0.000000
*SLIT_NAME	=  0, IHS
*SLIT_NAME	=  1, DS +
*SLIT_NAME	=  2, SS
*SLIT_NAME	=  3, RS
*COUNTER	=  SC-70, 0
*POS_FORMAT	=  0
*SCAN_AXIS	=  2theta/theta
*MEAS_MODE	=  Continuous Scanning
*TARGET		=  29
*XRAY_CHAR	=  K-ALPHA
*WAVE_LENGTH1	=  1.54059
*WAVE_LENGTH2	=  1.54441
*THICKNESS	=  0, 0.000000
*MU		=  0, 0.000000
*SCAN_MODE	=  2theta/theta
*SPEED_DIM	=  sec./step
*XUNIT		=  deg.
*YUNIT		=  counts
*SCALE_MODE	=  1
*REP_COUNT	=  0
*SE_COUNT	=  0
*STD_MATERIAL	=  Unknown, Unknown, 0.000000, 0.000000, 0.000000, 0.000000, 0.000000, 0.000000
*LATT_CONS	=  0, Unknown, Unknown, 0.000000, 0.000000, 0.000000, 0.000000, 0.000000, 0.000000
*SEC_COUNT	=  1
*TSPEC_SIZE	=  0
*EXTRA_SIZE	=  0
*MEMO		=

*BEGIN
*GROUP		=  0
*START		=  2.01
*STOP		=  69.99
*STEP		=  0.02
*OFFSET		=  0.000000
*SPEED		=  0.6
*SLIT_SPEC	=  0, 10.0mm, 10, 0.000000
*SLIT_SPEC	=  1, 1.250deg, 1.25, 0.000000
*SLIT_SPEC	=  2, 13.0mm(Open), 13, 0.000000
*SLIT_SPEC	=  3, 13.0mm, 13, 0.000000
*KV		=  40
*MA		=  15
*LOW		=  0.000000
*HIGH		=  0.000000
*CTEMPER	=  0, 0.000000
*CTEMPER	=  1, 0.000000
*CTEMPER	=  2, 0.000000
*PAREX		=  0, 0.000000
*PAREX		=  1, 0.000000
*PAREX		=  2, 0.000000
*PAREX		=  3, 0.000000
*PAREX		=  4, 0.000000
*PAREX		=  5, 0.000000
*PAREX		=  6, 0.000000
*PAREX		=  7, 0.000000
*PAREX		=  8, 0.000000
*PAREX		=  9, 0.000000
*PAREX		=  10, 0.000000
*PAREX		=  11, 0.000000
*PAREX		=  12, 0.000000
*PAREX		=  13, 0.000000
*PAREX		=  14, 0.000000
*PAREX		=  15, 0.000000
*FULL_SCALE	=  2113.2
*INDEX		=  0, 0, 0
*COUNT		=  3400
697, 726, 774, 523
590, 593, 710, 564
533, 665, 583, 553
564, 625, 628, 614
505, 548, 630, 672
651, 599, 640, 574
540, 617, 576, 527
523, 447, 551, 539
549, 573, 465, 517
424, 455, 391, 535
458, 646, 472, 507
452, 436, 471, 443
314, 418, 471, 431
386, 334, 411, 408
370, 296, 312, 363
378, 306, 356, 320
409, 305, 292, 351
255, 259, 257, 332
400, 258, 251, 218
360, 242, 366, 322
290, 288, 271, 234
314, 221, 280, 224
287, 261, 274, 239
301, 236, 245, 306
276, 251, 202, 271
223, 167, 254, 206
242, 191, 294, 292
273, 250, 253, 252
206, 227, 196, 230
233, 193, 252, 251
220, 240, 151, 209
237, 232, 185, 254
221, 285, 146, 194
229, 212, 251, 186
237, 259, 188, 222
194, 178, 243, 249
271, 190, 235, 207
199, 232, 239, 230
218, 192, 191, 194
193, 199, 206, 194
197, 193, 238, 156
208, 144, 221, 164
219, 170, 221, 182
182, 160, 194, 183
159, 178, 171, 184
190, 176, 175, 175
203, 160, 215, 162
201, 213, 167, 199
182, 185, 190, 177
242, 204, 191, 193
158, 173, 170, 218
153, 199, 177, 200
224, 160, 208, 177
215, 170, 211, 181
159, 165, 220, 199
189, 206, 208, 179
190, 169, 189, 205
199, 150, 189, 192
202, 168, 170, 159
164, 172, 171, 162
208, 164, 175, 201
190, 178, 213, 194
174, 182, 163, 157
228, 196, 169, 160
196, 185, 180, 143
153, 124, 173, 177
156, 158, 153, 170
185, 210, 146, 163
208, 150, 172, 152
156, 161, 183, 190
157, 166, 144, 178
182, 189, 143, 205
147, 170, 146, 181
159, 169, 147, 194
158, 174, 176, 145
147, 158, 181, 157
141, 154, 140, 156
142, 135, 118, 127
120, 176, 178, 164
139, 130, 136, 120
147, 111, 150, 139
130, 149, 131, 140
116, 126, 119, 123
121, 149, 148, 118
148, 135, 143, 159
125, 138, 154, 135
132, 128, 153, 125
133, 131, 124, 153
126, 144, 105, 131
129, 145, 134, 124
93, 144, 121, 145
131, 100, 100, 124
126, 109, 143, 109
134, 122, 126, 126
139, 155, 109, 144
163, 132, 105, 143
120, 104, 115, 104
109, 145, 124, 106
125, 131, 134, 89
132, 96, 137, 114
138, 145, 115, 124
150, 107, 107, 114
127, 114, 134, 128
133, 107, 105, 112
121, 116, 108, 92
102, 120, 129, 102
98, 105, 117, 126
103, 97, 107, 106
128, 112, 93, 115
131, 110, 104, 111
105, 109, 124, 122
137, 110, 123, 102
107, 100, 105, 95
107, 91, 115, 101
91, 79, 80, 100
95, 92, 105, 95
86, 84, 99, 97
113, 76, 95, 80
87, 77, 93, 86
91, 83, 79, 84
89, 90, 120, 90
82, 99, 92, 100
79, 87, 92, 82
114, 84, 96, 94
110, 97, 94, 100
95, 96, 84, 98
96, 100, 79, 100
80, 74, 83, 75
75, 78, 93, 111
74, 83, 100, 74
86, 89, 78, 84
88, 93, 94, 83
77, 67, 71, 86
95, 78, 88, 75
93, 97, 81, 94
104, 86, 92, 78
86, 75, 88, 98
84, 79, 88, 86
93, 69, 80, 66
91, 90, 85, 89
71, 81, 78, 76
69, 80, 84, 71
76, 77, 74, 91
79, 63, 101, 65
79, 87, 77, 84
63, 96, 97, 77
81, 91, 89, 94
79, 81, 95, 91
76, 67, 92, 98
93, 66, 83, 103
75, 85, 73, 85
77, 99, 89, 70
73, 84, 76, 78
80, 68, 73, 81
89, 77, 74, 70
84, 84, 73, 62
63, 81, 95, 93
75, 90, 70, 72
75, 83, 82, 108
104, 82, 75, 72
91, 86, 91, 110
108, 82, 71, 75
74, 70, 75, 64
71, 87, 74, 69
67, 63, 64, 59
85, 76, 65, 66
77, 73, 72, 76
76, 75, 67, 58
64, 48, 68, 57
66, 75, 59, 55
68, 60, 79, 71
64, 76, 81, 76
70, 55, 66, 73
53, 78, 60, 58
69, 76, 73, 71
54, 65, 69, 66
71, 79, 59, 72
59, 72, 70, 61
70, 77, 76, 63
75, 71, 74, 71
67, 50, 66, 63
85, 79, 95, 88
86, 75, 77, 65
71, 83, 91, 67
99, 91, 95, 75
68, 80, 89, 96
114, 134, 151, 217
298, 353, 448, 423
424, 394, 293, 226
160, 107, 99, 93
96, 71, 73, 66
87, 75, 77, 70
63, 72, 76, 74
55, 61, 64, 64
66, 79, 64, 58
72, 60, 63, 57
78, 63, 70, 68
67, 56, 59, 54
56, 62, 77, 81
75, 68, 82, 81
72, 79, 93, 94
85, 98, 81, 68
54, 74, 79, 63
56, 59, 66, 72
71, 53, 57, 67
72, 64, 58, 69
65, 49, 60, 44
57, 51, 60, 69
59, 56, 67, 82
63, 51, 51, 62
53, 53, 61, 64
62, 66, 62, 51
66, 64, 62, 55
61, 55, 67, 54
61, 74, 61, 63
62, 53, 59, 56
63, 59, 51, 50
67, 56, 57, 67
59, 58, 52, 58
59, 63, 52, 61
67, 55, 64, 54
72, 68, 50, 46
62, 58, 52, 75
65, 48, 53, 55
54, 54, 54, 49
65, 49, 60, 65
56, 68, 67, 57
50, 52, 55, 69
66, 53, 55, 50
61, 57, 64, 62
52, 53, 46, 69
49, 63, 49, 59
52, 54, 54, 60
48, 59, 53, 63
58, 40, 55, 63
63, 51, 51, 50
65, 67, 66, 51
49, 48, 60, 58
71, 47, 50, 54
55, 56, 63, 55
60, 61, 54, 56
60, 71, 61, 49
65, 53, 50, 59
58, 56, 54, 70
56, 40, 65, 41
63, 58, 57, 49
45, 65, 45, 76
60, 48, 52, 62
55, 55, 60, 61
66, 47, 52, 68
59, 69, 76, 61
60, 63, 66, 73
97, 136, 199, 348
411, 520, 641, 496
405, 263, 192, 115
96, 76, 71, 68
71, 58, 69, 76
70, 82, 71, 82
78, 59, 85, 67
68, 46, 60, 57
51, 58, 55, 62
58, 61, 56, 63
57, 60, 55, 80
70, 71, 63, 76
55, 53, 71, 60
55, 66, 77, 80
128, 177, 163, 194
178, 174, 117, 115
96, 100, 124, 313
475, 518, 467, 367
285, 241, 120, 86
88, 93, 63, 66
68, 52, 53, 65
52, 50, 53, 73
50, 70, 46, 57
58, 53, 41, 67
61, 62, 59, 53
44, 52, 58, 62
55, 40, 51, 56
47, 55, 53, 58
71, 48, 58, 48
59, 48, 48, 47
52, 45, 62, 54
60, 60, 60, 56
53, 60, 64, 49
55, 51, 48, 47
46, 53, 62, 48
50, 47, 47, 65
56, 70, 60, 49
55, 45, 55, 63
64, 52, 64, 63
51, 71, 57, 53
61, 65, 66, 52
72, 70, 66, 72
70, 56, 66, 71
62, 69, 71, 73
67, 65, 79, 80
99, 143, 229, 359
470, 536, 596, 651
612, 473, 332, 247
193, 154, 153, 181
176, 169, 168, 142
111, 114, 85, 63
60, 74, 69, 63
79, 66, 75, 65
81, 62, 67, 89
82, 102, 122, 133
141, 164, 186, 178
168, 148, 120, 106
107, 81, 65, 65
69, 70, 57, 69
69, 69, 59, 65
65, 67, 61, 75
61, 52, 73, 61
44, 57, 73, 65
73, 49, 70, 69
65, 57, 75, 58
62, 50, 48, 68
64, 56, 71, 51
64, 66, 57, 72
76, 55, 53, 68
52, 65, 54, 53
50, 54, 69, 58
65, 75, 75, 70
78, 60, 80, 55
75, 82, 82, 76
76, 64, 59, 78
60, 57, 70, 67
68, 60, 55, 72
66, 73, 81, 79
77, 79, 86, 66
80, 80, 93, 91
72, 116, 119, 141
136, 137, 161, 193
367, 733, 1202, 1746
1761, 1485, 1158, 1078
796, 471, 268, 128
99, 103, 96, 84
78, 92, 98, 89
65, 83, 93, 81
66, 74, 69, 68
69, 72, 67, 74
78, 63, 62, 72
81, 67, 79, 84
114, 148, 213, 256
286, 293, 331, 471
642, 834, 942, 998
1031, 968, 808, 598
466, 316, 235, 136
101, 99, 96, 103
110, 94, 77, 66
76, 90, 63, 72
87, 84, 107, 134
167, 162, 191, 151
154, 134, 93, 94
85, 92, 69, 120
137, 156, 145, 157
125, 125, 112, 93
72, 67, 87, 73
71, 71, 66, 63
65, 69, 59, 57
57, 85, 59, 55
63, 49, 71, 69
76, 78, 85, 86
115, 116, 102, 102
78, 77, 81, 66
69, 68, 59, 57
52, 68, 51, 66
61, 46, 47, 53
67, 58, 53, 70
62, 53, 68, 56
67, 67, 56, 57
60, 48, 53, 63
59, 55, 61, 61
54, 67, 78, 52
74, 80, 78, 109
81, 95, 103, 113
87, 80, 80, 66
83, 87, 109, 153
171, 202, 195, 155
133, 129, 135, 88
69, 62, 62, 59
58, 62, 71, 47
46, 63, 68, 60
71, 75, 55, 54
56, 62, 57, 67
52, 66, 59, 74
60, 48, 62, 62
72, 63, 58, 64
69, 77, 101, 68
77, 80, 69, 85
89, 114, 164, 269
305, 290, 199, 200
220, 216, 181, 127
95, 71, 80, 66
100, 98, 88, 63
67, 85, 67, 73
71, 64, 78, 57
61, 65, 52, 63
58, 60, 52, 58
60, 62, 69, 47
51, 60, 61, 56
65, 66, 74, 66
81, 77, 127, 173
340, 419, 540, 572
499, 414, 341, 310
261, 175, 113, 82
78, 70, 66, 64
59, 73, 62, 59
80, 60, 66, 71
64, 63, 61, 53
62, 72, 63, 55
61, 60, 51, 75
49, 64, 45, 44
62, 82, 62, 55
62, 53, 53, 49
63, 72, 50, 60
57, 64, 60, 61
58, 68, 59, 73
62, 72, 82, 73
85, 114, 199, 241
381, 396, 324, 223
222, 192, 207, 149
95, 75, 70, 62
65, 73, 45, 45
47, 81, 56, 58
71, 50, 62, 49
40, 54, 56, 42
65, 59, 56, 66
57, 67, 63, 51
56, 57, 63, 62
66, 49, 66, 51
59, 59, 59, 52
60, 57, 58, 52
58, 56, 63, 68
49, 73, 59, 56
57, 54, 62, 62
50, 55, 74, 48
61, 49, 54, 62
84, 68, 87, 78
71, 77, 68, 74
99, 68, 104, 88
150, 233, 390, 561
620, 688, 727, 672
538, 459, 415, 312
261, 188, 126, 111
64, 76, 103, 67
64, 58, 66, 58
65, 69, 60, 48
68, 66, 77, 63
54, 75, 59, 54
71, 69, 65, 56
61, 54, 59, 59
49, 53, 48, 62
57, 62, 52, 94
58, 69, 63, 70
62, 69, 70, 63
62, 51, 79, 73
57, 52, 52, 60
58, 59, 49, 56
48, 64, 58, 66
64, 47, 58, 58
54, 55, 52, 54
54, 59, 65, 41
60, 64, 52, 63
60, 60, 50, 61
59, 50, 59, 45
50, 57, 60, 49
78, 68, 54, 52
68, 69, 68, 69
61, 58, 52, 65
59, 54, 45, 59
39, 49, 58, 51
52, 64, 46, 72
55, 48, 66, 49
47, 45, 62, 54
48, 53, 70, 56
60, 49, 54, 65
55, 64, 46, 55
50, 66, 56, 69
64, 62, 72, 59
71, 66, 51, 43
63, 51, 49, 62
54, 44, 56, 43
60, 55, 57, 60
70, 61, 52, 41
52, 46, 61, 40
69, 57, 61, 64
84, 120, 156, 118
102, 88, 95, 113
97, 101, 83, 53
58, 67, 66, 68
59, 88, 100, 75
72, 69, 81, 111
128, 166, 191, 197
216, 145, 179, 161
171, 139, 118, 83
96, 82, 64, 90
65, 67, 40, 63
65, 64, 57, 68
66, 49, 59, 56
52, 47, 47, 62
61, 62, 59, 54
54, 67, 45, 47
56, 69, 64, 48
48, 57, 63, 54
51, 57, 53, 53
62, 56, 57, 56
66, 73, 60, 63
63, 76, 62, 60
74, 76, 82, 76
80, 80, 62, 70
62, 78, 62, 72
72, 68, 72, 58
60, 64, 55, 64
53, 56, 64, 58
73, 63, 57, 80
51, 52, 52, 66
63, 60, 57, 70
55, 78, 58, 74
73, 71, 65, 71
64, 63, 69, 78
64, 66, 85, 66
69, 65, 66, 80
67, 89, 100, 79
75, 76, 84, 86
67, 73, 68, 62
64, 66, 70, 70
64, 55, 58, 54
81, 89, 74, 84
68, 78, 72, 58
86, 60, 76, 80
73, 80, 90, 87
97, 106, 94, 73
86, 91, 105, 106
90, 106, 133, 204
455, 935, 1170, 1043
657, 462, 477, 559
582, 466, 309, 250
189, 126, 101, 104
94, 76, 68, 63
70, 71, 60, 74
57, 67, 66, 66
70, 57, 53, 72
42, 56, 63, 68
58, 54, 62, 55
69, 80, 67, 78
48, 51, 74, 62
57, 81, 71, 80
70, 76, 97, 109
95, 129, 108, 95
94, 75, 69, 86
87, 74, 70, 65
59, 64, 80, 72
73, 74, 97, 99
105, 103, 74, 61
69, 69, 87, 75
74, 58, 67, 64
74, 69, 60, 57
52, 57, 52, 64
74, 58, 59, 61
56, 54, 65, 58
58, 54, 46, 45
55, 58, 53, 66
56, 55, 59, 53
55, 57, 58, 65
64, 58, 63, 69
59, 53, 64, 43
53, 56, 64, 52
52, 56, 52, 52
84, 65, 58, 39
55, 55, 57, 51
60, 60, 50, 64
54, 62, 51, 53
59, 42, 55, 52
61, 67, 62, 59
44, 66, 58, 47
52, 53, 58, 62
57, 55, 49, 73
59, 53, 61, 58
57, 57, 47, 57
56, 66, 52, 62
62, 40, 49, 58
57, 60, 54, 57
67, 66, 62, 52
48, 59, 59, 65
64, 60, 55, 59
49, 67, 70, 77
88, 155, 236, 289
212, 150, 94, 81
102, 144, 158, 141
87, 63, 54, 51
50, 60, 62, 46
60, 53, 61, 66
49, 49, 67, 60
44, 57, 43, 55
56, 56, 66, 63
50, 53, 62, 65
63, 72, 63, 64
59, 55, 57, 53
56, 58, 67, 58
50, 64, 58, 72
60, 55, 53, 76
64, 60, 66, 54
44, 40, 65, 49
51, 61, 49, 48
52, 78, 61, 59
56, 65, 51, 54
67, 79, 63, 63
57, 50, 61, 62
47, 59, 65, 63
57, 53, 57, 51
51, 69, 53, 75
59, 66, 59, 51
62, 61, 56, 46
51, 57, 65, 53
53, 58, 53, 48
64, 64, 54, 46
43, 67, 59, 48
60, 56, 52, 55
67, 58, 53, 42
49, 58, 54, 65
52, 56, 52, 60
59, 64, 55, 60
51, 58, 66, 56
53, 49, 61, 67
42, 49, 78, 47
76, 60, 56, 66
58, 53, 53, 58
65, 77, 56, 61
60, 66, 65, 69
58, 60, 52, 64
48, 47, 50, 48
53, 42, 62, 50
52, 45, 69, 64
60, 52, 64, 55
63, 61, 64, 65
56, 65, 49, 55
61, 65, 48, 57
45, 47, 52, 56
54, 61, 56, 77
56, 51, 52, 65
76, 53, 57, 58
50, 50, 49, 57
47, 46, 60, 54
55, 53, 49, 43
74, 51, 47, 52
43, 46, 47, 42
50, 65, 57, 46
62, 54, 47, 52
41, 51, 43, 59
51, 50, 49, 64
50, 54, 51, 56
62, 51, 51, 57
43, 59, 57, 47
48, 50, 64, 63
45, 50, 48, 52
54, 60, 62, 63
46, 77, 81, 118
117, 82, 62, 65
60, 93, 90, 103
100, 75, 84, 68
62, 67, 48, 60
79, 75, 54, 72
47, 65, 44, 70
61, 62, 57, 63
71, 64, 60, 55
62, 56, 48, 55
52, 59, 62, 70
46, 65, 56, 65
45, 52, 60, 71
76, 72, 75, 72
66, 67, 64, 54
64, 52, 61, 85
105, 109, 87, 83
84, 61, 82, 78
84, 83, 82, 73
60, 48, 61, 57
45, 68, 59, 54
44, 60, 63, 61
44, 52, 55, 71
66, 57, 59, 62
64, 52, 49, 42
64, 68, 57, 48
58, 47, 52, 45
47, 62, 45, 47
56, 64, 40, 40
61, 58, 62, 66
51, 61, 52, 46
66, 49, 49, 54
53, 70, 51, 59
55, 61, 58, 51
52, 67, 52, 64
61, 53, 65, 48
68, 53, 56, 70
52, 65, 63, 64
68, 64, 90, 127
162, 156, 135, 85
70, 73, 79, 111
118, 113, 91, 93
61, 56, 61, 61
52, 54, 65, 58
57, 58, 65, 73
56, 62, 62, 55
64, 67, 52, 60
53, 44, 60, 62
39, 61, 62, 35
65, 62, 66, 44
58, 52, 59, 62
51, 52, 45, 44
48, 57, 50, 64
43, 51, 57, 57
57, 40, 56, 64
55, 52, 52, 55
57, 59, 55, 60
45, 54, 48, 55
61, 43, 73, 56
49, 49, 61, 53
65, 49, 60, 56
51, 56, 55, 55
55, 44, 54, 54
50, 68, 53, 54
76, 46, 50, 62
59, 57, 54, 65
56, 43, 48, 56
48, 65, 54, 57
61, 61, 53, 53
59, 64, 61, 50
50, 57, 54, 64
61, 59, 65, 72
76, 130, 159, 227
229, 252, 231, 246
190, 215, 199, 188
165, 200, 160, 156
163, 132, 99, 98
56, 76, 65, 62
65, 62, 55, 62
54, 60, 61, 56
52, 48, 48, 61
61, 49, 55, 79
57, 50, 61, 70
63, 70, 60, 64
69, 53, 49, 57
55, 66, 54, 57
54, 58, 68, 62
49, 49, 51, 46
48, 62, 58, 56
56, 61, 67, 63
49, 53, 50, 36
45, 56, 50, 69
60, 70, 42, 76
54, 68, 67, 67
52, 63, 56, 68
67, 57, 49, 63
57, 57, 51, 60
58, 50, 46, 65
48, 64, 52, 60
53, 58, 52, 63
61, 68, 55, 56
60, 54, 49, 66
71, 55, 48, 51
67, 61, 52, 63
61, 49, 49, 55
45, 65, 57, 69
60, 57, 61, 61
62, 54, 57, 67
63, 76, 52, 66
55, 53, 47, 66
53, 51, 48, 59
54, 44, 50, 50
53, 54, 54, 54
56, 52, 52, 51
53, 53, 51, 58
53, 48, 60, 47
46, 44, 50, 49
62, 55, 60, 52
51, 59, 54, 56
54, 59, 68, 57
48, 40, 58, 55
59, 54, 39, 64
49, 47, 56, 50
59, 51, 46, 40
43, 49, 53, 48
52, 44, 50, 48
53, 54, 44, 48
76, 52, 53, 49
45, 63, 49, 53
47, 58, 44, 64
61, 60, 52, 66
59, 51, 51, 63
59, 59, 59, 58
63, 59, 53, 67
66, 41, 61, 64
31, 61, 59, 58
67, 49, 60, 50
59, 53, 63, 57
45, 63, 65, 61
57, 53, 46, 54
41, 51, 53, 48
65, 53, 57, 52
71, 54, 56, 56
55, 47, 48, 44
50, 55, 54, 53
53, 52, 55, 61
51, 63, 47, 66
40, 61, 65, 56
50, 65, 61, 59
57, 65, 47, 51
40, 48, 49, 60
51, 55, 57, 55
52, 57, 48, 58
52, 48, 54, 53
72, 55, 64, 78
60, 58, 53, 57
54, 65, 57, 61
57, 64, 65, 55
55, 54, 50, 73
52, 48, 36, 49
60, 41, 55, 49
53, 41, 59, 44
43, 46, 53, 59
52, 55, 49, 44
51, 47, 39, 69
65, 64, 48, 57
62, 55, 62, 67
47, 56, 52, 53
55, 54, 49, 43
62, 53, 59, 45
61, 49, 57, 65
49, 57, 62, 46
51, 57, 66, 58
68, 66, 53, 65
49, 53, 56, 52
55, 55, 51, 59
58, 55, 59, 59
47, 52, 54, 56
67, 50, 67, 53
53, 56, 51, 51
43, 54, 49, 60
49, 60, 57, 50
67, 56, 57, 49
52, 38, 46, 58
50, 54, 57, 45
58, 52, 61, 59
41, 45, 50, 43
52, 46, 50, 47
51, 58, 52, 48
65, 54, 54, 51
64, 60, 65, 68
64, 62, 38, 60
*END

*EOF