File: XRD/NaCl_Theta_2-Theta.asc
*TYPE		=  Raw
*CLASS		=  ASCII CLASS
*SAMPLE		=  NaCl
*COMMENT	=
*FNAME		=  NaCl_Theta_2-Theta.asc
*DATE		=  21-Feb-25 11:41

*GROUP_COUNT	=  1
*GONIO		=  MiniFlex 300/600, 150
*ATTACHMENT	=  ASC-6
*ASC		=  0, 0, 0.000000, 0.000000
*FILTER		=  None
*C_MONOCHRO	=  None, 0.000000
*SLIT_NAME	=  0, IHS
*SLIT_NAME	=  1, DS +
*SLIT_NAME	=  2, SS
*SLIT_NAME	=  3, RS
*COUNTER	=  SC-70, 0
*POS_FORMAT	=  0
*SCAN_AXIS	=  2theta/theta
*MEAS_MODE	=  Continuous Scanning
*TARGET		=  29
*XRAY_CHAR	=  K-ALPHA
*WAVE_LENGTH1	=  1.54059
*WAVE_LENGTH2	=  1.54441
*THICKNESS	=  0, 0.000000
*MU		=  0, 0.000000
*SCAN_MODE	=  2theta/theta
*SPEED_DIM	=  sec./step
*XUNIT		=  deg.
*YUNIT		=  counts
*SCALE_MODE	=  1
*REP_COUNT	=  0
*SE_COUNT	=  0
*STD_MATERIAL	=  Unknown, Unknown, 0.000000, 0.000000, 0.000000, 0.000000, 0.000000, 0.000000
*LATT_CONS	=  0, Unknown, Unknown, 0.000000, 0.000000, 0.000000, 0.000000, 0.000000, 0.000000
*SEC_COUNT	=  1
*TSPEC_SIZE	=  0
*EXTRA_SIZE	=  0
*MEMO		=

*BEGIN
*GROUP		=  0
*START		=  2.01
*STOP		=  69.99
*STEP		=  0.02
*OFFSET		=  0.000000
*SPEED		=  0.6
*SLIT_SPEC	=  0, 10.0mm, 10, 0.000000
*SLIT_SPEC	=  1, 1.250deg, 1.25, 0.000000
*SLIT_SPEC	=  2, 13.0mm(Open), 13, 0.000000
*SLIT_SPEC	=  3, 13.0mm, 13, 0.000000
*KV		=  40
*MA		=  15
*LOW		=  0.000000
*HIGH		=  0.000000
*CTEMPER	=  0, 0.000000
*CTEMPER	=  1, 0.000000
*CTEMPER	=  2, 0.000000
*PAREX		=  0, 0.000000
*PAREX		=  1, 0.000000
*PAREX		=  2, 0.000000
*PAREX		=  3, 0.000000
*PAREX		=  4, 0.000000
*PAREX		=  5, 0.000000
*PAREX		=  6, 0.000000
*PAREX		=  7, 0.000000
*PAREX		=  8, 0.000000
*PAREX		=  9, 0.000000
*PAREX		=  10, 0.000000
*PAREX		=  11, 0.000000
*PAREX		=  12, 0.000000
*PAREX		=  13, 0.000000
*PAREX		=  14, 0.000000
*PAREX		=  15, 0.000000
*FULL_SCALE	=  14370
*INDEX		=  0, 0, 0
*COUNT		=  3400
706, 864, 728, 694
804, 734, 692, 764
697, 597, 701, 670
697, 444, 644, 485
601, 636, 449, 609
534, 515, 419, 537
502, 483, 627, 527
538, 692, 637, 476
542, 531, 396, 586
479, 577, 458, 522
518, 541, 465, 455
530, 391, 446, 386
321, 350, 391, 400
392, 389, 375, 288
358, 356, 389, 275
326, 410, 350, 320
267, 288, 325, 357
316, 248, 296, 256
260, 215, 235, 271
280, 237, 246, 234
290, 175, 281, 229
243, 231, 235, 224
198, 222, 235, 200
233, 193, 173, 224
204, 189, 202, 220
261, 158, 189, 170
164, 182, 158, 153
188, 174, 177, 212
220, 197, 165, 186
172, 193, 179, 221
135, 211, 189, 163
137, 170, 214, 127
176, 159, 207, 117
157, 136, 167, 194
126, 161, 145, 183
116, 174, 108, 123
134, 148, 140, 158
139, 161, 179, 156
152, 140, 158, 143
127, 160, 166, 148
147, 143, 135, 135
162, 106, 151, 150
104, 156, 121, 144
158, 126, 109, 136
145, 135, 194, 140
140, 149, 172, 128
171, 121, 160, 153
126, 116, 170, 135
147, 140, 127, 142
189, 173, 156, 140
168, 173, 154, 157
135, 183, 171, 185
173, 175, 180, 177
215, 241, 181, 204
198, 224, 214, 222
227, 256, 264, 234
256, 241, 269, 265
267, 266, 277, 270
303, 266, 229, 278
352, 343, 317, 281
291, 263, 352, 332
325, 351, 364, 379
281, 323, 349, 319
286, 325, 253, 347
335, 311, 362, 260
262, 271, 289, 267
287, 294, 301, 264
221, 240, 265, 284
238, 243, 205, 189
186, 148, 170, 165
125, 113, 68, 66
109, 90, 106, 111
101, 106, 100, 117
102, 119, 76, 128
99, 101, 110, 96
84, 98, 70, 109
97, 94, 71, 126
89, 78, 102, 68
102, 75, 81, 92
85, 107, 89, 82
89, 91, 75, 101
106, 83, 96, 76
89, 89, 52, 65
84, 75, 84, 84
68, 77, 94, 79
93, 95, 87, 84
86, 92, 94, 92
94, 85, 79, 83
74, 93, 90, 74
94, 53, 98, 102
87, 103, 91, 97
89, 82, 108, 90
78, 98, 73, 75
79, 81, 95, 83
92, 100, 88, 109
101, 82, 114, 79
116, 75, 90, 102
65, 86, 69, 105
87, 93, 70, 85
66, 68, 116, 105
91, 67, 69, 89
87, 105, 101, 77
92, 77, 82, 79
97, 76, 96, 89
105, 63, 83, 74
81, 95, 79, 71
86, 80, 71, 66
88, 83, 72, 67
81, 53, 65, 49
59, 42, 66, 78
45, 71, 57, 43
76, 60, 56, 46
65, 56, 54, 63
59, 64, 74, 72
47, 55, 64, 53
73, 53, 71, 50
45, 68, 35, 49
72, 54, 41, 62
67, 52, 54, 54
60, 32, 53, 63
72, 55, 55, 61
66, 57, 62, 53
54, 48, 55, 36
55, 57, 60, 52
47, 66, 52, 67
70, 47, 54, 56
51, 56, 40, 52
46, 46, 60, 58
69, 44, 49, 46
67, 32, 47, 59
59, 56, 54, 49
55, 45, 52, 66
63, 46, 70, 67
56, 62, 56, 43
59, 56, 45, 53
44, 57, 64, 58
55, 51, 41, 64
48, 33, 47, 56
54, 56, 57, 39
57, 48, 55, 54
58, 54, 40, 56
51, 51, 45, 63
42, 59, 68, 53
58, 53, 42, 35
51, 40, 52, 54
56, 55, 51, 52
53, 41, 41, 31
49, 43, 47, 58
34, 54, 49, 36
48, 44, 56, 41
59, 60, 65, 52
56, 50, 49, 65
61, 55, 50, 57
60, 67, 58, 56
61, 59, 51, 51
35, 48, 54, 34
66, 57, 49, 63
50, 69, 53, 59
50, 66, 47, 56
62, 60, 68, 46
46, 56, 52, 53
58, 46, 56, 68
51, 70, 56, 55
45, 73, 60, 67
62, 52, 41, 43
55, 45, 43, 53
64, 40, 60, 39
72, 51, 50, 72
48, 53, 70, 50
48, 52, 59, 71
47, 66, 55, 68
69, 54, 63, 68
53, 65, 53, 46
65, 47, 65, 61
61, 60, 73, 63
66, 62, 67, 70
61, 57, 60, 57
68, 66, 73, 43
47, 58, 48, 42
68, 65, 76, 65
56, 65, 55, 47
42, 50, 44, 57
71, 53, 54, 65
57, 47, 48, 63
59, 58, 58, 52
64, 55, 60, 53
49, 57, 68, 56
62, 52, 58, 52
60, 44, 57, 61
54, 52, 57, 37
49, 57, 50, 56
47, 48, 59, 48
67, 48, 64, 49
57, 56, 41, 56
45, 56, 63, 50
45, 45, 35, 71
44, 48, 37, 52
58, 52, 43, 51
40, 43, 53, 50
44, 58, 36, 46
42, 57, 47, 57
57, 30, 49, 38
44, 48, 56, 54
52, 47, 61, 61
45, 41, 43, 46
56, 56, 36, 54
47, 42, 43, 50
45, 43, 40, 48
40, 53, 33, 52
61, 56, 32, 45
46, 58, 40, 34
37, 44, 49, 28
43, 38, 39, 39
52, 43, 46, 52
43, 38, 44, 36
48, 47, 40, 36
39, 35, 39, 39
30, 46, 28, 35
45, 30, 40, 43
47, 40, 51, 32
47, 53, 37, 37
53, 29, 45, 41
34, 38, 38, 41
32, 35, 36, 53
48, 38, 40, 41
38, 38, 49, 41
34, 29, 47, 30
57, 39, 49, 34
37, 45, 41, 35
37, 31, 43, 35
39, 46, 44, 36
38, 31, 31, 29
29, 26, 31, 47
43, 30, 45, 28
38, 36, 38, 25
26, 41, 41, 36
37, 37, 37, 30
41, 34, 25, 36
29, 28, 49, 41
34, 34, 19, 34
38, 27, 27, 30
31, 26, 39, 38
32, 32, 30, 25
30, 42, 24, 36
41, 29, 23, 33
36, 36, 34, 31
25, 34, 36, 32
41, 29, 28, 33
30, 30, 35, 35
28, 43, 31, 29
26, 38, 32, 30
31, 37, 29, 28
37, 32, 26, 29
27, 21, 24, 17
31, 26, 28, 26
40, 33, 33, 29
29, 27, 31, 32
31, 27, 28, 27
24, 33, 22, 26
21, 36, 22, 25
28, 26, 25, 22
27, 23, 25, 29
30, 20, 24, 29
23, 24, 21, 22
30, 18, 26, 25
28, 26, 23, 32
19, 25, 23, 22
21, 17, 15, 28
25, 25, 23, 25
25, 20, 21, 26
23, 18, 22, 23
23, 16, 18, 26
26, 22, 22, 19
15, 27, 16, 21
29, 24, 19, 23
20, 23, 25, 28
25, 25, 23, 21
18, 24, 26, 26
27, 16, 13, 23
30, 25, 18, 19
20, 22, 12, 15
19, 18, 25, 19
13, 17, 13, 21
14, 17, 24, 27
21, 15, 17, 13
31, 17, 19, 22
20, 28, 19, 21
15, 20, 13, 25
22, 22, 24, 20
10, 15, 25, 16
9, 17, 24, 20
17, 21, 19, 18
13, 15, 17, 15
13, 22, 19, 16
22, 21, 18, 11
22, 18, 18, 24
16, 14, 13, 13
16, 24, 18, 21
20, 15, 10, 16
13, 18, 23, 16
14, 13, 15, 18
10, 25, 22, 17
19, 17, 26, 17
18, 20, 20, 24
21, 21, 30, 15
18, 18, 14, 14
12, 13, 18, 15
21, 21, 19, 16
15, 12, 17, 18
22, 17, 15, 9
21, 14, 10, 19
15, 14, 25, 22
16, 24, 14, 22
19, 14, 20, 16
20, 26, 27, 29
42, 60, 74, 71
86, 98, 97, 91
100, 103, 78, 69
66, 48, 41, 43
23, 32, 18, 17
14, 18, 14, 15
18, 17, 11, 19
14, 21, 19, 17
19, 12, 10, 16
22, 20, 16, 15
17, 9, 20, 17
10, 20, 20, 19
14, 21, 16, 13
20, 21, 21, 25
24, 24, 16, 17
14, 26, 28, 23
33, 46, 50, 72
95, 82, 136, 124
103, 84, 64, 50
34, 23, 26, 34
17, 19, 17, 15
12, 16, 12, 29
22, 28, 22, 18
18, 19, 15, 20
13, 12, 11, 16
17, 14, 18, 10
11, 19, 14, 14
13, 20, 19, 15
13, 16, 17, 18
23, 12, 27, 19
18, 19, 26, 18
8, 22, 13, 14
15, 13, 29, 23
23, 16, 14, 15
23, 16, 20, 17
17, 14, 17, 12
9, 19, 12, 16
16, 16, 18, 12
15, 14, 22, 21
11, 31, 24, 24
19, 17, 18, 21
25, 18, 30, 30
37, 34, 40, 49
62, 65, 60, 68
74, 64, 80, 75
67, 75, 69, 61
80, 76, 74, 81
78, 69, 76, 83
73, 91, 96, 106
122, 119, 125, 144
158, 164, 174, 221
204, 245, 266, 281
270, 306, 307, 311
393, 428, 446, 477
549, 692, 956, 1333
1949, 3005, 4277, 6475
8947, 11048, 11892, 11975
11220, 10527, 9174, 7500
5453, 3681, 2559, 1794
1164, 702, 439, 378
332, 243, 234, 222
192, 172, 139, 121
109, 109, 95, 88
77, 87, 65, 99
72, 77, 69, 59
45, 63, 61, 58
65, 65, 60, 62
62, 71, 73, 41
46, 47, 44, 59
49, 51, 44, 46
47, 49, 51, 53
61, 45, 40, 43
47, 47, 47, 41
48, 51, 55, 40
35, 44, 40, 44
55, 43, 37, 37
47, 38, 38, 41
37, 30, 36, 44
41, 41, 35, 34
36, 33, 37, 34
28, 31, 38, 33
34, 35, 32, 28
28, 34, 26, 47
34, 43, 35, 45
32, 29, 41, 35
30, 25, 32, 45
36, 28, 38, 27
34, 47, 29, 26
33, 36, 29, 23
31, 41, 32, 26
38, 23, 36, 19
29, 26, 31, 29
23, 26, 31, 30
31, 30, 20, 37
23, 24, 20, 19
32, 27, 30, 30
29, 27, 21, 23
23, 27, 28, 31
26, 26, 32, 26
33, 33, 18, 23
28, 25, 22, 18
34, 21, 26, 19
21, 15, 31, 24
21, 30, 23, 24
26, 24, 28, 23
31, 23, 27, 24
25, 18, 32, 28
29, 18, 23, 23
26, 28, 28, 17
26, 28, 25, 17
24, 22, 19, 26
21, 26, 19, 28
22, 21, 24, 17
34, 28, 29, 19
20, 25, 29, 25
10, 20, 22, 20
18, 19, 18, 28
11, 26, 26, 24
22, 15, 26, 20
29, 22, 19, 14
15, 21, 21, 18
20, 20, 26, 16
23, 17, 19, 24
19, 18, 21, 19
15, 26, 11, 16
16, 28, 15, 16
17, 18, 21, 20
10, 19, 18, 24
13, 13, 21, 12
22, 8, 26, 18
15, 22, 19, 14
14, 22, 13, 26
10, 14, 18, 19
19, 14, 20, 10
18, 15, 30, 17
31, 20, 18, 23
21, 20, 13, 13
17, 12, 16, 19
13, 18, 24, 20
13, 16, 8, 12
11, 12, 12, 14
21, 16, 11, 10
16, 17, 16, 15
20, 18, 15, 16
19, 14, 14, 11
17, 10, 18, 16
13, 12, 18, 9
8, 14, 11, 12
18, 13, 10, 18
18, 15, 16, 13
12, 16, 18, 15
8, 14, 10, 11
14, 13, 16, 15
16, 10, 6, 13
12, 17, 20, 15
13, 18, 16, 20
10, 19, 20, 16
17, 16, 17, 10
17, 13, 11, 13
15, 9, 15, 18
10, 8, 10, 12
9, 13, 12, 14
13, 10, 11, 15
6, 15, 10, 12
11, 10, 14, 9
15, 23, 11, 10
9, 7, 12, 14
17, 12, 14, 14
15, 15, 15, 8
7, 18, 15, 20
16, 25, 25, 13
18, 16, 13, 10
18, 11, 14, 13
19, 13, 9, 10
7, 8, 13, 7
11, 12, 9, 9
14, 8, 8, 11
5, 9, 11, 13
16, 9, 9, 14
7, 15, 14, 15
12, 17, 8, 11
11, 7, 17, 10
13, 16, 8, 11
11, 14, 8, 14
4, 11, 17, 11
9, 13, 10, 19
14, 11, 13, 11
12, 10, 13, 9
7, 12, 11, 12
11, 22, 11, 8
17, 15, 9, 9
8, 11, 12, 9
6, 14, 16, 6
9, 8, 15, 5
17, 15, 6, 5
5, 14, 10, 14
7, 11, 2, 7
14, 7, 11, 10
12, 6, 7, 11
11, 19, 7, 11
14, 8, 4, 13
14, 13, 8, 9
10, 9, 16, 17
9, 11, 11, 12
16, 12, 8, 11
15, 10, 9, 11
18, 15, 16, 20
22, 16, 20, 16
32, 17, 20, 15
15, 14, 7, 17
24, 8, 13, 13
18, 18, 19, 21
13, 12, 12, 15
15, 13, 16, 24
12, 18, 10, 16
17, 14, 11, 11
17, 19, 15, 11
12, 11, 13, 12
15, 14, 24, 14
12, 25, 13, 21
21, 22, 16, 16
29, 32, 27, 37
49, 39, 36, 52
41, 47, 52, 49
64, 58, 88, 76
82, 100, 95, 134
197, 240, 412, 564
802, 1011, 1018, 1117
1156, 1069, 968, 881
824, 725, 625, 511
385, 282, 206, 129
112, 87, 60, 66
47, 44, 53, 34
35, 32, 26, 24
21, 23, 26, 17
15, 22, 15, 16
12, 11, 15, 8
10, 15, 19, 14
15, 13, 11, 11
16, 14, 13, 11
13, 10, 21, 9
12, 14, 13, 11
19, 8, 26, 13
14, 18, 14, 12
12, 17, 10, 16
8, 9, 9, 14
13, 16, 14, 12
15, 14, 11, 13
9, 7, 7, 12
16, 16, 10, 14
14, 9, 9, 14
7, 8, 6, 13
9, 12, 17, 8
7, 13, 12, 12
12, 13, 10, 14
7, 13, 12, 16
5, 7, 5, 5
8, 12, 13, 12
10, 10, 8, 6
12, 10, 9, 16
7, 12, 15, 16
6, 9, 8, 6
12, 11, 16, 5
9, 12, 6, 16
14, 11, 5, 12
13, 12, 13, 13
7, 8, 9, 10
11, 15, 10, 8
8, 5, 10, 7
6, 15, 7, 9
11, 5, 11, 9
16, 11, 12, 8
10, 5, 6, 4
5, 5, 6, 11
8, 8, 7, 6
8, 7, 10, 5
9, 8, 7, 7
8, 12, 9, 10
11, 6, 12, 10
8, 2, 11, 6
3, 13, 3, 13
12, 11, 7, 6
10, 12, 9, 4
9, 9, 7, 9
11, 12, 11, 6
8, 11, 4, 12
12, 10, 10, 7
7, 8, 14, 15
6, 11, 6, 6
9, 9, 8, 10
9, 10, 7, 13
6, 8, 6, 8
3, 11, 12, 14
10, 10, 12, 10
5, 9, 6, 9
10, 9, 9, 11
7, 6, 14, 7
10, 9, 10, 6
6, 7, 6, 6
7, 7, 10, 7
7, 9, 11, 5
6, 5, 9, 3
9, 12, 6, 3
13, 5, 5, 5
13, 7, 7, 6
10, 5, 4, 7
9, 9, 6, 5
6, 9, 7, 7
10, 9, 14, 4
7, 6, 8, 9
9, 6, 6, 8
4, 6, 4, 6
6, 8, 3, 7
7, 3, 6, 7
6, 7, 7, 10
3, 11, 6, 10
8, 4, 8, 10
7, 5, 9, 2
4, 9, 5, 4
10, 4, 6, 8
8, 10, 9, 9
11, 7, 10, 7
5, 8, 7, 11
5, 7, 5, 5
4, 8, 7, 5
9, 6, 9, 10
5, 2, 11, 4
8, 1, 4, 9
8, 9, 1, 8
10, 10, 16, 12
4, 8, 10, 10
10, 18, 20, 28
27, 31, 20, 28
24, 39, 32, 31
30, 26, 25, 17
16, 14, 19, 18
11, 11, 9, 12
7, 10, 8, 10
6, 9, 10, 7
9, 6, 11, 7
7, 8, 7, 2
6, 9, 6, 6
6, 7, 6, 5
9, 6, 9, 15
9, 12, 8, 10
5, 7, 9, 7
8, 2, 9, 5
9, 6, 9, 6
7, 8, 11, 9
5, 4, 6, 4
2, 5, 9, 2
4, 11, 9, 8
4, 6, 7, 9
8, 14, 11, 11
4, 8, 7, 8
7, 6, 6, 7
8, 7, 9, 13
9, 14, 18, 7
7, 6, 11, 16
10, 11, 11, 10
20, 13, 10, 9
10, 17, 15, 17
25, 20, 25, 23
25, 54, 43, 75
87, 110, 85, 113
91, 107, 98, 125
111, 88, 91, 80
87, 56, 53, 56
42, 36, 36, 32
20, 15, 21, 13
13, 8, 7, 10
9, 9, 9, 12
13, 8, 7, 9
13, 4, 12, 9
10, 7, 7, 9
6, 6, 11, 7
8, 9, 5, 10
8, 7, 9, 10
5, 11, 6, 6
8, 8, 5, 2
9, 6, 7, 5
2, 10, 12, 4
9, 10, 15, 6
3, 5, 5, 6
8, 4, 12, 6
4, 6, 4, 9
8, 7, 5, 4
6, 3, 4, 5
7, 9, 3, 4
5, 6, 4, 8
5, 6, 5, 7
7, 4, 8, 4
10, 4, 7, 4
7, 7, 5, 6
9, 7, 5, 8
6, 10, 9, 9
2, 10, 9, 6
4, 7, 6, 7
7, 8, 15, 10
14, 8, 9, 11
12, 6, 8, 9
9, 6, 8, 8
4, 6, 3, 4
5, 5, 4, 8
4, 7, 5, 5
4, 7, 9, 5
9, 8, 1, 8
5, 8, 8, 7
6, 7, 5, 9
6, 5, 10, 8
10, 5, 4, 3
9, 6, 6, 5
3, 8, 9, 3
5, 8, 5, 6
9, 9, 5, 3
9, 2, 8, 6
4, 7, 4, 3
4, 3, 6, 6
8, 5, 9, 7
7, 4, 7, 4
6, 4, 1, 7
2, 2, 8, 5
6, 4, 11, 4
3, 4, 1, 3
3, 4, 7, 6
5, 7, 4, 6
6, 4, 4, 7
7, 4, 8, 7
7, 6, 2, 7
6, 4, 8, 5
8, 9, 6, 7
7, 5, 10, 2
3, 8, 7, 7
6, 9, 6, 6
5, 7, 2, 3
7, 3, 8, 7
4, 7, 8, 5
6, 5, 6, 5
5, 4, 4, 2
2, 7, 9, 8
6, 10, 7, 6
4, 2, 6, 6
3, 5, 5, 8
5, 5, 5, 6
5, 6, 2, 5
4, 3, 5, 7
6, 3, 11, 5
4, 16, 4, 5
9, 7, 9, 8
8, 8, 4, 3
9, 5, 6, 10
6, 4, 8, 7
6, 6, 6, 5
7, 7, 12, 9
5, 11, 13, 7
4, 7, 6, 5
6, 11, 7, 9
8, 6, 8, 6
10, 10, 5, 12
7, 12, 0.000000, 8
8, 6, 3, 7
8, 4, 8, 7
4, 9, 8, 10
6, 5, 4, 5
6, 4, 5, 10
10, 8, 4, 8
8, 9, 5, 8
11, 9, 7, 8
13, 7, 8, 8
5, 5, 12, 8
9, 13, 9, 11
9, 11, 5, 12
4, 10, 6, 9
15, 10, 10, 6
7, 8, 3, 7
13, 9, 9, 5
5, 10, 10, 12
14, 8, 9, 9
9, 9, 10, 16
13, 17, 12, 13
10, 7, 18, 11
20, 13, 12, 14
27, 20, 22, 32
17, 25, 30, 23
32, 40, 34, 33
36, 49, 74, 85
133, 182, 191, 258
320, 320, 320, 305
322, 292, 280, 257
257, 217, 199, 196
160, 185, 155, 112
79, 89, 53, 52
27, 25, 28, 16
13, 15, 15, 19
20, 13, 10, 17
9, 14, 15, 12
13, 13, 13, 8
12, 18, 12, 9
12, 3, 6, 16
16, 7, 9, 5
10, 9, 13, 8
8, 7, 4, 6
6, 9, 13, 9
10, 10, 9, 6
8, 7, 12, 8
6, 4, 7, 8
6, 7, 9, 5
8, 8, 9, 12
11, 12, 9, 8
6, 8, 10, 9
5, 6, 3, 6
6, 16, 7, 2
6, 6, 7, 9
5, 10, 5, 9
11, 7, 6, 3
6, 7, 4, 6
10, 6, 6, 7
10, 5, 13, 11
4, 6, 5, 12
7, 8, 7, 0.000000
8, 11, 3, 9
8, 5, 7, 6
9, 2, 6, 7
6, 7, 6, 7
7, 15, 5, 9
9, 8, 8, 4
11, 5, 13, 8
10, 2, 4, 9
7, 5, 6, 6
3, 10, 9, 5
5, 11, 11, 6
9, 8, 5, 1
8, 10, 7, 5
3, 1, 4, 7
8, 8, 9, 6
*END

*EOF